{
  "resourceType": "Bundle",
  "id": "soarian-patient-r4",
  "type": "collection",
  "entry": [
    {
      "fullUrl": "https://fhir-myrecord-sc.cerner.com/Endpoint/2f8f5ec1-b7b8-4be5-ae27-e308284dd9c1",
      "resource": {
        "resourceType": "Endpoint",
        "id": "2f8f5ec1-b7b8-4be5-ae27-e308284dd9c1",
        "status": "active",
        "connectionType": {
          "system": "http://terminology.hl7.org/CodeSystem/endpoint-connection-type",
          "code": "hl7-fhir-rest",
          "display": "HL7 FHIR"
        },
        "payloadType": [
          {
            "coding": [
              {
                "system": "urn:oid:1.3.6.1.4.1.19376.1.2.3",
                "code": "urn:ihe:pcc:xphr:2007",
                "display": "Personal Health Records"
              }
            ]
          }
        ],
        "address": "https://fhir-myrecord-sc.cerner.com/r4/2f8f5ec1-b7b8-4be5-ae27-e308284dd9c1/"
      }
    },
    {
      "fullUrl": "https://fhir-myrecord-sc.cerner.com/Organization/O2f8f5ec1-b7b8-4be5-ae27-e308284dd9c1",
      "resource": {
        "resourceType": "Organization",
        "id": "O2f8f5ec1-b7b8-4be5-ae27-e308284dd9c1",
        "identifier": [
          {
            "use": "official",
            "system": "urn:ietf:rfc:3986",
            "value": "urn:oid:1.3.6.1.4.1.60455"
          }
        ],
        "name": "R0SE - Soarian Clinicals Public Sandbox",
        "address": [
          {
            "line": [
              "2800 Rock Creek Pkwy"
            ],
            "city": "Kansas City",
            "state": "MO",
            "postalCode": "64117-2521",
            "country": "United States of America"
          }
        ],
        "endpoint": [
          {
            "reference": "Endpoint/2f8f5ec1-b7b8-4be5-ae27-e308284dd9c1"
          }
        ]
      }
    },
    {
      "fullUrl": "https://fhir-myrecord-sc.cerner.com/Endpoint/be754400-3834-4653-96ed-453314fc77d8",
      "resource": {
        "resourceType": "Endpoint",
        "id": "be754400-3834-4653-96ed-453314fc77d8",
        "status": "active",
        "connectionType": {
          "system": "http://terminology.hl7.org/CodeSystem/endpoint-connection-type",
          "code": "hl7-fhir-rest",
          "display": "HL7 FHIR"
        },
        "payloadType": [
          {
            "coding": [
              {
                "system": "urn:oid:1.3.6.1.4.1.19376.1.2.3",
                "code": "urn:ihe:pcc:xphr:2007",
                "display": "Personal Health Records"
              }
            ]
          }
        ],
        "address": "https://fhir-myrecord-sc.cerner.com/r4/be754400-3834-4653-96ed-453314fc77d8/"
      }
    },
    {
      "fullUrl": "https://fhir-myrecord-sc.cerner.com/Organization/Obe754400-3834-4653-96ed-453314fc77d8",
      "resource": {
        "resourceType": "Organization",
        "id": "Obe754400-3834-4653-96ed-453314fc77d8",
        "identifier": [
          {
            "use": "official",
            "system": "urn:ietf:rfc:3986",
            "value": "urn:oid:1.3.6.1.4.1.40271"
          }
        ],
        "name": "Peconic Bay Medical Center",
        "address": [
          {
            "line": [
              "1300 Roanoke Ave"
            ],
            "city": "Riverhead",
            "state": "NY",
            "postalCode": "11901-2031",
            "country": "United States of America"
          }
        ],
        "endpoint": [
          {
            "reference": "Endpoint/be754400-3834-4653-96ed-453314fc77d8"
          }
        ]
      }
    },
    {
      "fullUrl": "https://fhir-myrecord-sc.cerner.com/Endpoint/3f25c0e5-282c-4d6e-ade5-aa2b86ec03e9",
      "resource": {
        "resourceType": "Endpoint",
        "id": "3f25c0e5-282c-4d6e-ade5-aa2b86ec03e9",
        "status": "active",
        "connectionType": {
          "system": "http://terminology.hl7.org/CodeSystem/endpoint-connection-type",
          "code": "hl7-fhir-rest",
          "display": "HL7 FHIR"
        },
        "payloadType": [
          {
            "coding": [
              {
                "system": "urn:oid:1.3.6.1.4.1.19376.1.2.3",
                "code": "urn:ihe:pcc:xphr:2007",
                "display": "Personal Health Records"
              }
            ]
          }
        ],
        "address": "https://fhir-myrecord-sc.cerner.com/r4/3f25c0e5-282c-4d6e-ade5-aa2b86ec03e9/"
      }
    },
    {
      "fullUrl": "https://fhir-myrecord-sc.cerner.com/Organization/O3f25c0e5-282c-4d6e-ade5-aa2b86ec03e9",
      "resource": {
        "resourceType": "Organization",
        "id": "O3f25c0e5-282c-4d6e-ade5-aa2b86ec03e9",
        "identifier": [
          {
            "use": "official",
            "system": "urn:ietf:rfc:3986",
            "value": "urn:oid:1.3.6.1.4.1.38581"
          }
        ],
        "name": "Crouse Hospital",
        "address": [
          {
            "line": [
              "736 Irving Ave"
            ],
            "city": "Syracuse",
            "state": "NY",
            "postalCode": "13210-1687",
            "country": "United States of America"
          }
        ],
        "endpoint": [
          {
            "reference": "Endpoint/3f25c0e5-282c-4d6e-ade5-aa2b86ec03e9"
          }
        ]
      }
    },
    {
      "fullUrl": "https://fhir-myrecord-sc.cerner.com/Endpoint/610e8cdb-2c3e-496a-b07b-c914f86e14f3",
      "resource": {
        "resourceType": "Endpoint",
        "id": "610e8cdb-2c3e-496a-b07b-c914f86e14f3",
        "status": "active",
        "connectionType": {
          "system": "http://terminology.hl7.org/CodeSystem/endpoint-connection-type",
          "code": "hl7-fhir-rest",
          "display": "HL7 FHIR"
        },
        "payloadType": [
          {
            "coding": [
              {
                "system": "urn:oid:1.3.6.1.4.1.19376.1.2.3",
                "code": "urn:ihe:pcc:xphr:2007",
                "display": "Personal Health Records"
              }
            ]
          }
        ],
        "address": "https://fhir-myrecord-sc.cerner.com/r4/610e8cdb-2c3e-496a-b07b-c914f86e14f3/"
      }
    },
    {
      "fullUrl": "https://fhir-myrecord-sc.cerner.com/Organization/O610e8cdb-2c3e-496a-b07b-c914f86e14f3",
      "resource": {
        "resourceType": "Organization",
        "id": "O610e8cdb-2c3e-496a-b07b-c914f86e14f3",
        "identifier": [
          {
            "use": "official",
            "system": "urn:ietf:rfc:3986",
            "value": "urn:oid:1.3.6.1.4.1.37998"
          }
        ],
        "name": "Greenwood Leflore Hospital",
        "address": [
          {
            "line": [
              "1401 River Rd"
            ],
            "city": "Greenwood",
            "state": "MS",
            "postalCode": "38930-4030",
            "country": "United States of America"
          }
        ],
        "endpoint": [
          {
            "reference": "Endpoint/610e8cdb-2c3e-496a-b07b-c914f86e14f3"
          }
        ]
      }
    },
    {
      "fullUrl": "https://fhir-myrecord-sc.cerner.com/Endpoint/29d5e7f6-9579-4aa3-8893-01210e29a651",
      "resource": {
        "resourceType": "Endpoint",
        "id": "29d5e7f6-9579-4aa3-8893-01210e29a651",
        "status": "active",
        "connectionType": {
          "system": "http://terminology.hl7.org/CodeSystem/endpoint-connection-type",
          "code": "hl7-fhir-rest",
          "display": "HL7 FHIR"
        },
        "payloadType": [
          {
            "coding": [
              {
                "system": "urn:oid:1.3.6.1.4.1.19376.1.2.3",
                "code": "urn:ihe:pcc:xphr:2007",
                "display": "Personal Health Records"
              }
            ]
          }
        ],
        "address": "https://fhir-myrecord-sc.cerner.com/r4/29d5e7f6-9579-4aa3-8893-01210e29a651/"
      }
    },
    {
      "fullUrl": "https://fhir-myrecord-sc.cerner.com/Organization/O29d5e7f6-9579-4aa3-8893-01210e29a651",
      "resource": {
        "resourceType": "Organization",
        "id": "O29d5e7f6-9579-4aa3-8893-01210e29a651",
        "identifier": [
          {
            "use": "official",
            "system": "urn:ietf:rfc:3986",
            "value": "urn:oid:1.3.6.1.4.1.42272"
          }
        ],
        "name": "Howard University Hospital",
        "address": [
          {
            "line": [
              "2041 Georgia Ave"
            ],
            "city": "Washington",
            "state": "DC",
            "postalCode": "20060-0001",
            "country": "United States of America"
          }
        ],
        "endpoint": [
          {
            "reference": "Endpoint/29d5e7f6-9579-4aa3-8893-01210e29a651"
          }
        ]
      }
    },
    {
      "fullUrl": "https://fhir-myrecord-sc.cerner.com/Endpoint/20eda2fa-ebed-437e-8b30-7ddd2a35effa",
      "resource": {
        "resourceType": "Endpoint",
        "id": "20eda2fa-ebed-437e-8b30-7ddd2a35effa",
        "status": "active",
        "connectionType": {
          "system": "http://terminology.hl7.org/CodeSystem/endpoint-connection-type",
          "code": "hl7-fhir-rest",
          "display": "HL7 FHIR"
        },
        "payloadType": [
          {
            "coding": [
              {
                "system": "urn:oid:1.3.6.1.4.1.19376.1.2.3",
                "code": "urn:ihe:pcc:xphr:2007",
                "display": "Personal Health Records"
              }
            ]
          }
        ],
        "address": "https://fhir-myrecord-sc.cerner.com/r4/20eda2fa-ebed-437e-8b30-7ddd2a35effa/"
      }
    },
    {
      "fullUrl": "https://fhir-myrecord-sc.cerner.com/Organization/O20eda2fa-ebed-437e-8b30-7ddd2a35effa",
      "resource": {
        "resourceType": "Organization",
        "id": "O20eda2fa-ebed-437e-8b30-7ddd2a35effa",
        "identifier": [
          {
            "use": "official",
            "system": "urn:ietf:rfc:3986",
            "value": "urn:oid:1.3.6.1.4.1.38769"
          }
        ],
        "name": "Holy Redeemer Hospital",
        "address": [
          {
            "line": [
              "667 Welsh Rd"
            ],
            "city": "Huntingdon Valley",
            "state": "PA",
            "postalCode": "19006-6309",
            "country": "United States of America"
          }
        ],
        "endpoint": [
          {
            "reference": "Endpoint/20eda2fa-ebed-437e-8b30-7ddd2a35effa"
          }
        ]
      }
    },
    {
      "fullUrl": "https://fhir-myrecord-sc.cerner.com/Endpoint/118786cd-a5ec-4920-96f9-757c12e60137",
      "resource": {
        "resourceType": "Endpoint",
        "id": "118786cd-a5ec-4920-96f9-757c12e60137",
        "status": "active",
        "connectionType": {
          "system": "http://terminology.hl7.org/CodeSystem/endpoint-connection-type",
          "code": "hl7-fhir-rest",
          "display": "HL7 FHIR"
        },
        "payloadType": [
          {
            "coding": [
              {
                "system": "urn:oid:1.3.6.1.4.1.19376.1.2.3",
                "code": "urn:ihe:pcc:xphr:2007",
                "display": "Personal Health Records"
              }
            ]
          }
        ],
        "address": "https://fhir-myrecord-sc.cerner.com/r4/118786cd-a5ec-4920-96f9-757c12e60137/"
      }
    },
    {
      "fullUrl": "https://fhir-myrecord-sc.cerner.com/Organization/O118786cd-a5ec-4920-96f9-757c12e60137",
      "resource": {
        "resourceType": "Organization",
        "id": "O118786cd-a5ec-4920-96f9-757c12e60137",
        "identifier": [
          {
            "use": "official",
            "system": "urn:ietf:rfc:3986",
            "value": "urn:oid:1.3.6.1.4.1.39524"
          }
        ],
        "name": "Nacogdoches Memorial Hospital",
        "address": [
          {
            "line": [
              "1204 N Mound St"
            ],
            "city": "Nacogdoches",
            "state": "TX",
            "postalCode": "75961-4027",
            "country": "United States of America"
          }
        ],
        "endpoint": [
          {
            "reference": "Endpoint/118786cd-a5ec-4920-96f9-757c12e60137"
          }
        ]
      }
    },
    {
      "fullUrl": "https://fhir-myrecord-sc.cerner.com/Endpoint/d099f3aa-0761-4b26-afb2-b7a6d565f0ce",
      "resource": {
        "resourceType": "Endpoint",
        "id": "d099f3aa-0761-4b26-afb2-b7a6d565f0ce",
        "status": "active",
        "connectionType": {
          "system": "http://terminology.hl7.org/CodeSystem/endpoint-connection-type",
          "code": "hl7-fhir-rest",
          "display": "HL7 FHIR"
        },
        "payloadType": [
          {
            "coding": [
              {
                "system": "urn:oid:1.3.6.1.4.1.19376.1.2.3",
                "code": "urn:ihe:pcc:xphr:2007",
                "display": "Personal Health Records"
              }
            ]
          }
        ],
        "address": "https://fhir-myrecord-sc.cerner.com/r4/d099f3aa-0761-4b26-afb2-b7a6d565f0ce/"
      }
    },
    {
      "fullUrl": "https://fhir-myrecord-sc.cerner.com/Organization/Od099f3aa-0761-4b26-afb2-b7a6d565f0ce",
      "resource": {
        "resourceType": "Organization",
        "id": "Od099f3aa-0761-4b26-afb2-b7a6d565f0ce",
        "identifier": [
          {
            "use": "official",
            "system": "urn:ietf:rfc:3986",
            "value": "urn:oid:1.3.6.1.4.1.42166"
          }
        ],
        "name": "Saint Joseph's Medical Center",
        "address": [
          {
            "line": [
              "127 S Broadway"
            ],
            "city": "Yonkers",
            "state": "NY",
            "postalCode": "10701-4006",
            "country": "United States of America"
          }
        ],
        "endpoint": [
          {
            "reference": "Endpoint/d099f3aa-0761-4b26-afb2-b7a6d565f0ce"
          }
        ]
      }
    },
    {
      "fullUrl": "https://fhir-myrecord-sc.cerner.com/Endpoint/8c4b7810-13a5-4a82-9e13-439865842bde",
      "resource": {
        "resourceType": "Endpoint",
        "id": "8c4b7810-13a5-4a82-9e13-439865842bde",
        "status": "active",
        "connectionType": {
          "system": "http://terminology.hl7.org/CodeSystem/endpoint-connection-type",
          "code": "hl7-fhir-rest",
          "display": "HL7 FHIR"
        },
        "payloadType": [
          {
            "coding": [
              {
                "system": "urn:oid:1.3.6.1.4.1.19376.1.2.3",
                "code": "urn:ihe:pcc:xphr:2007",
                "display": "Personal Health Records"
              }
            ]
          }
        ],
        "address": "https://fhir-myrecord-sc.cerner.com/r4/8c4b7810-13a5-4a82-9e13-439865842bde/"
      }
    },
    {
      "fullUrl": "https://fhir-myrecord-sc.cerner.com/Organization/O8c4b7810-13a5-4a82-9e13-439865842bde",
      "resource": {
        "resourceType": "Organization",
        "id": "O8c4b7810-13a5-4a82-9e13-439865842bde",
        "identifier": [
          {
            "use": "official",
            "system": "urn:ietf:rfc:3986",
            "value": "urn:oid:1.3.6.1.4.1.37735"
          }
        ],
        "name": "St. Mary's Medical Center",
        "address": [
          {
            "line": [
              "2900 1st Ave"
            ],
            "city": "Huntington",
            "state": "WV",
            "postalCode": "25702-1241",
            "country": "United States of America"
          }
        ],
        "endpoint": [
          {
            "reference": "Endpoint/8c4b7810-13a5-4a82-9e13-439865842bde"
          }
        ]
      }
    }
  ]
}